Folder: spectra-app-beta/downloads/files/09

Note: README.md
# Spectra App - Spectroscopy Toolkit for Exoplanet Characterization

[![Python 3.11+](https://img.shields.io/badge/python-3.11%2B-blue.svg)](https://www.python.org/downloads/)
[![Platform: Windows](https://img.shields.io/badge/platform-Windows-lightgrey.svg)](https://www.microsoft.com/windows)
[![License: MIT](https://img.shields.io/badge/License-MIT-yellow.svg)](LICENSE)
[![Code style: Black](https://img.shields.io/badge/code%20style-black-000000.svg)](https://github.com/psf/black)

A modern, modular **Windows desktop application** for spectroscopic analysis of stellar, planetary, and exoplanet data. Built with PySide6/Qt for performance and reliability, featuring clean UI, robust provenance tracking, and offline-first caching.

## 🎯 Project Overview

This repository represents the complete rewrite of the Spectra-App into a modern, modular desktop application. The redesign addresses legacy limitations while preserving all existing functionality:

- **Clean Architecture**: Modular service-based design for maintainability
- **Scientific Accuracy**: Rigorous unit handling and provenance tracking
- **Performance Focus**: Optimized for large datasets (1M+ points)
- **Docs-First Development**: Comprehensive documentation for users and developers

### Legacy Reference
- Original application: https://github.com/brettadin/spectra-app
- This repository: Complete PySide6 rewrite with enhanced architecture

## ✨ Key Features

### Accessing Real Spectral Data
- **Remote Data Dialog**: Fetch calibrated spectra directly from NASA MAST archives
  - **Solar System quick-picks**: Mercury, Venus, Earth, Mars, Jupiter, Saturn, Uranus, Neptune, Pluto (JWST, HST, Cassini, New Horizons)
  - **Stars**: Vega (A0V CALSPEC standard), Tau Ceti (solar analog), HD 189733 (active K-dwarf host)
  - **Exoplanets & systems**: HD 189733 b, WASP-39 b, TRAPPIST-1 system (JWST transmission/emission spectra)
  - Access via **File → Fetch Remote Data** (Ctrl+Shift+R)
  - All data from credible sources: MAST, Exo.MAST, NASA Exoplanet Archive
  - Wavelength coverage: UV, visible, near-IR, mid-IR (0.1–30 µm depending on instrument)

> **Note**: Bundled reference data (JWST targets JSON) contains example-only digitized values for demonstration purposes. For scientific analysis, always use the Remote Data dialog to fetch real calibrated observations from MAST.

### Data Ingestion & Management
- **Multi-format Support**: CSV/TXT, FITS 1D, JCAMP-DX with intelligent header detection
- **Remote Data Integration**: NASA/MAST API for JWST spectra, NIST Atomic Spectra Database, NASA Exoplanet Archive
- **Offline-First Cache**: All data persists locally with SHA256 deduplication
- **Provenance Tracking**: Complete audit trail for all data operations

### Analysis & Processing
- **Unit Canon System**: Store raw data in nanometers; display-time conversions (nm/Å/µm/cm⁻¹)
- **Mathematical Operations**: A−B, A/B (epsilon-guarded), baseline removal, Savitzky-Golay smoothing
- **Spectral Analysis**: Gau

File: cleaner moon 2 files-composite.csv
wavelength_nm,intensity,source_count
345.386,0.846195,2
348.234,-21.73267,2
351.08,58.3159,2
353.924,52.2339,2
356.765,10.99214,2
359.604,7.05517,2
362.44,38.031,2
365.274,60.0151,2
368.106,-11.0018,2
370.935,38.62011,2
373.762,43.1084,2
376.586,75.35307,2
379.408,5.35555,2
382.228,29.56964,2
385.045,61.17706,2
387.86,34.6609,2
390.672,71.2555,2
393.482,80.2872,2
396.289,82.4697,2
399.094,82.6099,2
401.897,130.917,2
404.697,153.872,2
407.495,130.363,2
410.291,179.206,2
413.084,159.747,2
415.874,184.937,2
418.663,166.663,2
421.448,175.6,2
424.232,234.432,2
427.013,217.081,2
429.791,205.491,2
432.567,238.721,2
435.341,230.699,2
438.112,227.765,2
440.881,288.55,2
443.647,341.189,2
446.411,353.896,2
449.172,396.335,2
451.931,383.883,2
454.688,471.615,2
457.442,457.239,2
460.194,482.722,2
462.943,528.671,2
465.69,547.184,2
468.434,610.768,2
471.176,608.9739,2
473.915,695.606,2
476.652,776.113,2
479.387,868.401,2
482.119,1087.24,2
484.849,1067.13,2
487.576,1138.6,2
490.301,1222.69,2
493.023,1338.46,2
495.743,1356.8,2
498.46,1424.66,2
501.175,1533.04,2
503.887,1482.66,2
506.597,1544.2,2
509.305,1513.13,2
512.01,1533.38,2
514.712,1589.36,2
517.412,1620.24,2
520.11,1567.14,2
522.805,1570.7,2
525.498,1645.76,2
528.188,1685.96,2
530.876,1726.127,2
533.561,1727.18,2
536.244,1721.95,2
538.924,1722.72,2
541.602,1757.15,2
544.277,1730.51,2
546.95,1726.54,2
549.62,1721.69,2
552.288,1802.36,2
554.953,1817.39,2
557.616,1774.25,2
560.276,1761.34,2
562.934,1739.37,2
565.59,1864.32,2
568.242,1761.06,2
570.893,1770.91,2
573.541,1767.47,2
576.186,1775.11,2
578.829,1783.79,2
581.469,1702.6,2
584.107,1690.03,2
586.743,1671.84,2
589.375,1685.92,2
592.006,1582.73,2
594.634,1585.85,2
597.259,1530.83,2
599.882,1529.58,2
602.502,1603.52,2
605.12,1637.83,2
607.735,1612.34,2
610.348,1657.98,2
612.958,1643.21,2
615.566,1595.03,2
618.171,1571.01,2
620.774,1502.64,2
623.374,1602.22,2
625.971,1495.19,2
628.566,1562.23,2
631.159,1559.86,2
633.749,1441.02,2
636.336,1503.56,2
638.921,1491.43,2
641.504,1427.59,2
644.084,1453.66,2
646.661,1432.39,2
649.236,1416.48,2
651.808,1351.08,2
654.378,1319.01,2
656.945,1311.44,2
659.51,1258.16,2
662.072,1193.53,2
664.631,1270.23,2
667.188,1247.77,2
669.743,1263.08,2
672.295,1211.37,2
674.844,1218.64,2
677.391,1226.08,2
679.935,1205.7,2
682.477,1137.85,2
685.016,1219.65,2
687.553,1162.82,2
690.087,1056.82,2
692.618,1040.18,2
695.147,936.667,2
697.673,918.496,2
700.197,914.79,2
702.718,924.167,2
705.237,912.088,2
707.753,908.579,2
710.267,895.287,2
712.778,881.398,2
715.286,884.274,2
717.792,745.611,2
720.295,776.254,2
722.796,692.745,2
725.294,592.398,2
727.789,572.251,2
730.282,550.498,2
732.772,560.379,2
735.26,548.904,2
737.745,611.735,2
740.228,591.385,2
742.708,664.108,2
745.185,706.54,2
747.66,671.948,2
750.132,684.1,2
752.602,719.084,2
755.069,669.616,2
757.533,631.223,2
759.995,624.484,2
762.454,551.376,2
764.911,419.108,2
767.365,346.047,2
769.816,321.0622,2
772.265,402.2,2
774.711,501.35,2
777.155,513.408,2
779.596,518.8,2
782.034,478.728,2
784.47,484.641,2
786.903,448.362,2
789.334,441.796,2
791.762,425.035,2
794.187,378.427,2
796.61,405.153,2
799.03,357.53,2
801.447,350.251,2
803.862,419.882,2
806.274,342.285,2
808.684,340.106,2
811.091,403.816,2
813.495,358.722,2
815.897,372.1842,2
818.296,293.61,2
820.692,228.851,2
823.086,234.632,2
825.477,190.81,2
827.866,209.18,2
830.252,171.112,2
832.635,223.104,2
835.016,227.862,2
837.394,268.739,2
839.769,259.075,2
842.142,223.537,2
844.512,257.726,2
846.879,242.364,2
849.244,258.514,2
851.606,206.85,2
853.966,273.186,2
856.323,213.184,2
858.677,154.915,2
861.028,121.248,2
863.377,228.707,2
865.723,160.552,2
868.067,193.818,2
870.408,181.521,2
872.746,184.637,2
875.082,159.065,2
877.415,146.167,2
879.745,148.912,2
882.072,146.525,2
884.397,149.493,2
886.72,119.605,2
889.039,150.129,2
891.356,168.769,2
893.67,129.901,2
895.982,100.986,2
898.291,151.383,2
900.597,110.762,2
902.901,97.19758,2
905.201,58.33984,2
907.5,105.262,2
909.795,136.187,2
912.088,30.7074,2
914.378,87.6475,2
916.665,41.4373,2
918.95,69.0768,2
921.232,50.4288,2
923.512,98.74922,2
925.788,47.68553,2
928.062,32.96679,2
930.334,61.773,2
932.602,72.4452,2
934.868,42.6118,2
937.131,-3.100795,2
939.392,18.3016,2
941.65,20.6064,2
943.905,-3.66581,2
946.157,-22.8349,2
948.407,25.0959,2
950.654,26.7941,2
952.898,5.3624,2
955.14,-8.752475,2
957.379,-22.29041,2
959.615,8.746535,2
961.848,8.17547,2
964.079,-30.2047,2
966.307,40.9642,2
968.532,26.23063,2
970.755,21.155,2
972.975,44.2945,2
975.192,29.5955,2
977.406,43.72426,2
979.618,-15.5257,2
981.827,-17.7891,2
984.033,34.7239,2
986.237,48.79567,2
988.438,26.7617,2
990.636,-7.62439,2
992.831,17.19798,2
995.024,3.09946,2
997.213,27.95965,2
999.401,-10.4213,2
1001.585,8.19006,2
1003.767,18.88227,2
1005.945,0.83992,2
1008.122,-18.3155,2
1010.295,-26.2353,2
1012.466,4.78416,2
1014.634,38.6304,2
1016.799,-13.8276,2
1018.961,14.9479,2
1021.121,9.30795,2
1023.278,47.5889,2
1025.432,-5.92536,2
1027.584,30.7042,2
1029.732,12.7065,2
1031.878,-25.6827,2
1034.021,32.4511,2
1036.162,-20.0424,2
1038.3,-0.28352,2
1040.434,2.53757,2
1042.567,13.8054,2
1044.696,-25.6484,2
1045.841,-15.4973,2