Folder: spectra-app-beta/samples/SUN AND MOON/MOON

Note: README.md
# Spectra App - Spectroscopy Toolkit for Exoplanet Characterization

[![Python 3.11+](https://img.shields.io/badge/python-3.11%2B-blue.svg)](https://www.python.org/downloads/)
[![Platform: Windows](https://img.shields.io/badge/platform-Windows-lightgrey.svg)](https://www.microsoft.com/windows)
[![License: MIT](https://img.shields.io/badge/License-MIT-yellow.svg)](LICENSE)
[![Code style: Black](https://img.shields.io/badge/code%20style-black-000000.svg)](https://github.com/psf/black)

A modern, modular **Windows desktop application** for spectroscopic analysis of stellar, planetary, and exoplanet data. Built with PySide6/Qt for performance and reliability, featuring clean UI, robust provenance tracking, and offline-first caching.

## 🎯 Project Overview

This repository represents the complete rewrite of the Spectra-App into a modern, modular desktop application. The redesign addresses legacy limitations while preserving all existing functionality:

- **Clean Architecture**: Modular service-based design for maintainability
- **Scientific Accuracy**: Rigorous unit handling and provenance tracking
- **Performance Focus**: Optimized for large datasets (1M+ points)
- **Docs-First Development**: Comprehensive documentation for users and developers

### Legacy Reference
- Original application: https://github.com/brettadin/spectra-app
- This repository: Complete PySide6 rewrite with enhanced architecture

## ✨ Key Features

### Accessing Real Spectral Data
- **Remote Data Dialog**: Fetch calibrated spectra directly from NASA MAST archives
  - **Solar System quick-picks**: Mercury, Venus, Earth, Mars, Jupiter, Saturn, Uranus, Neptune, Pluto (JWST, HST, Cassini, New Horizons)
  - **Stars**: Vega (A0V CALSPEC standard), Tau Ceti (solar analog), HD 189733 (active K-dwarf host)
  - **Exoplanets & systems**: HD 189733 b, WASP-39 b, TRAPPIST-1 system (JWST transmission/emission spectra)
  - Access via **File → Fetch Remote Data** (Ctrl+Shift+R)
  - All data from credible sources: MAST, Exo.MAST, NASA Exoplanet Archive
  - Wavelength coverage: UV, visible, near-IR, mid-IR (0.1–30 µm depending on instrument)

> **Note**: Bundled reference data (JWST targets JSON) contains example-only digitized values for demonstration purposes. For scientific analysis, always use the Remote Data dialog to fetch real calibrated observations from MAST.

### Data Ingestion & Management
- **Multi-format Support**: CSV/TXT, FITS 1D, JCAMP-DX with intelligent header detection
- **Remote Data Integration**: NASA/MAST API for JWST spectra, NIST Atomic Spectra Database, NASA Exoplanet Archive
- **Offline-First Cache**: All data persists locally with SHA256 deduplication
- **Provenance Tracking**: Complete audit trail for all data operations

### Analysis & Processing
- **Unit Canon System**: Store raw data in nanometers; display-time conversions (nm/Å/µm/cm⁻¹)
- **Mathematical Operations**: A−B, A/B (epsilon-guarded), baseline removal, Savitzky-Golay smoothing
- **Spectral Analysis**: Gau

File: moon_manifest-composite.csv
wavelength_nm,intensity,source_count
345.386,-274.897,12
348.234,-95.6643,12
351.08,273.957,12
353.924,68.1787,12
356.765,57.4743,12
359.604,30.9839,12
362.44,178.413,12
365.274,115.862,12
368.106,229.481,12
370.935,170.955,12
373.762,158.443,12
376.586,144.554,12
379.408,199.278,12
382.228,235.053,12
385.045,173.902,12
387.86,261.034,12
390.672,294.219,12
393.482,360.537,12
396.289,283.807,12
399.094,353.654,12
401.897,357.002,12
404.697,529.153,12
407.495,485.215,12
410.291,571.577,12
413.084,624.811,12
415.874,633.54,12
418.663,688.132,12
421.448,833.513,12
424.232,818.658,12
427.013,895.139,12
429.791,843.887,12
432.567,828.002,12
435.341,1024.36,12
438.112,1045.22,12
440.881,969.979,12
443.647,1267.12,12
446.411,1328.34,12
449.172,1462.74,12
451.931,1520.55,12
454.688,1726.07,12
457.442,1663.77,12
460.194,1793.72,12
462.943,1850.31,12
465.69,2030.52,12
468.434,2100.84,12
471.176,2251.63,12
473.915,2569.66,12
476.652,2746.33,12
479.387,3219.18,12
482.119,3551.34,12
484.849,3776.3,12
487.576,4089.38,12
490.301,4346.48,12
493.023,4641.82,12
495.743,4885.95,12
498.46,5313.22,12
501.175,5468.11,12
503.887,5549.14,12
506.597,5652.32,12
509.305,5905.91,12
512.01,5873.13,12
514.712,6010.13,12
517.412,6076.4,12
520.11,6028.33,12
522.805,6060.69,12
525.498,6135.28,12
528.188,6226.36,12
530.876,6381.34,12
533.561,6400.41,12
536.244,6470.54,12
538.924,6515.51,12
541.602,6475.85,12
544.277,6437.56,12
546.95,6471.3,12
549.62,6457.96,12
552.288,6533.06,12
554.953,6598.39,12
557.616,6583.94,12
560.276,6573.45,12
562.934,6577.12,12
565.59,6575.64,12
568.242,6478.11,12
570.893,6502.9,12
573.541,6502.94,12
576.186,6419.89,12
578.829,6433.25,12
581.469,6359.04,12
584.107,6346.17,12
586.743,6429.11,12
589.375,6389.19,12
592.006,6132.99,12
594.634,6026.89,12
597.259,6000.79,12
599.882,5842.03,12
602.502,5936.33,12
605.12,5974.21,12
607.735,6141.05,12
610.348,6094.2,12
612.958,6123.31,12
615.566,6150.28,12
618.171,6103.33,12
620.774,6093.88,12
623.374,6079.9,12
625.971,6009.32,12
628.566,5931.33,12
631.159,5846.6,12
633.749,5734.71,12
636.336,5789,12
638.921,5787.06,12
641.504,5715.11,12
644.084,5646.77,12
646.661,5604.96,12
649.236,5613.69,12
651.808,5270.92,12
654.378,5234.42,12
656.945,5037.7,12
659.51,4936.21,12
662.072,4924.66,12
664.631,4829.58,12
667.188,5019.6,12
669.743,5094.62,12
672.295,5009.48,12
674.844,4954.18,12
677.391,4942.87,12
679.935,4952.78,12
682.477,5979.85,12
685.016,4746.73,12
687.553,4744.67,12
690.087,4396.5,12
692.618,4044.84,12
695.147,3904.05,12
697.673,3681.02,12
700.197,3753.68,12
702.718,3680.71,12
705.237,3617.56,12
707.753,3622.34,12
710.267,3608.69,12
712.778,3635.02,12
715.286,3631.81,12
717.792,5116.09,12
720.295,3289.55,12
722.796,2756.86,12
725.294,2447.25,12
727.789,2453.05,12
730.282,2282.08,12
732.772,2182.63,12
735.26,2217.46,12
737.745,2413.31,12
740.228,2491.06,12
742.708,2720.58,12
745.185,2736.75,12
747.66,2763.36,12
750.132,2771.52,12
752.602,2776.37,12
755.069,2695.07,12
757.533,2662.7,12
759.995,2634.91,12
762.454,2283.65,12
764.911,1785.39,12
767.365,1453.25,12
769.816,1469.22,12
772.265,1670.66,12
774.711,1945.79,12
777.155,2051.94,12
779.596,2257.7,12
782.034,2128.6,12
784.47,2053.16,12
786.903,2042,12
789.334,1854.29,12
791.762,1863.27,12
794.187,1713.73,12
796.61,1685.46,12
799.03,1608.42,12
801.447,1601.09,12
803.862,1585.61,12
806.274,1578.04,12
808.684,1612.54,12
811.091,1657.91,12
813.495,1535.63,12
815.897,1343.42,12
818.296,1272.96,12
820.692,1094.22,12
823.086,954.677,12
825.477,872.213,12
827.866,858.43,12
830.252,881.103,12
832.635,839.322,12
835.016,972.028,12
837.394,908.304,12
839.769,855.945,12
842.142,887.488,12
844.512,978.244,12
846.879,1035.75,12
849.244,932.788,12
851.606,846.282,12
853.966,918.764,12
856.323,904.468,12
858.677,808.869,12
861.028,780.615,12
863.377,779.012,12
865.723,773.672,12
868.067,770.629,12
870.408,699.49,12
872.746,756.256,12
875.082,600.777,12
877.415,582.248,12
879.745,609.527,12
882.072,652.616,12
884.397,615.93,12
886.72,525.03,12
889.039,614.208,12
891.356,525.9,12
893.67,532.253,12
895.982,677.997,12
898.291,491.551,12
900.597,421.701,12
902.901,444.156,12
905.201,273.224,12
907.5,214.866,12
909.795,295.228,12
912.088,327.765,12
914.378,188.595,12
916.665,224.2666,12
918.95,217.543,12
921.232,236.321,12
923.512,176.402,12
925.788,142.437,12
928.062,330.968,12
930.334,115.467,12
932.602,230.781,12
934.868,59.5119,12
937.131,141.266,12
939.392,211.421,12
941.65,3.52649,12
943.905,15.4556,12
946.157,50.8313,12
948.407,45.1806,12
950.654,106.27,12
952.898,-77.0614,12
955.14,-30.2822,12
957.379,134.136,12
959.615,-1.17894,12
961.848,26.6712,12
964.079,57.4824,12
966.307,-86.9796,12
968.532,13.5651,12
970.755,25.3371,12
972.975,37.8447,12
975.192,55.351,12
977.406,107.677,12
979.618,0.881252,12
981.827,47.8653,12
984.033,6.57811,12
986.237,58.2136,12
988.438,146.578,12
990.636,-13.4344,12
992.831,157.746,12
995.024,18.8484,12
997.213,-16.9279,12
999.401,168.155,12
1001.585,13.3119,12
1003.767,30.7136,12
1005.945,-72.5973,12
1008.122,80.3404,12
1010.295,74.5394,12
1012.466,5.00519,12
1014.634,66.3617,12
1016.799,38.0201,12
1018.961,69.0998,12
1021.121,-25.4747,12
1023.278,49.5586,12
1025.432,41.1698,12
1027.584,88.2263,12
1029.732,12.51515,12
1031.878,12.85978,12
1034.021,56.3015,12
1036.162,93.4084,12
1038.3,-15.621,12
1040.434,-29.5385,12
1042.567,143.437,12
1044.696,-2.79411,12
1045.841,93.53095,12