Folder: spectra-app-beta/samples/IR data/IR H2O

Note: README.md
# Spectra App - Spectroscopy Toolkit for Exoplanet Characterization

[![Python 3.11+](https://img.shields.io/badge/python-3.11%2B-blue.svg)](https://www.python.org/downloads/)
[![Platform: Windows](https://img.shields.io/badge/platform-Windows-lightgrey.svg)](https://www.microsoft.com/windows)
[![License: MIT](https://img.shields.io/badge/License-MIT-yellow.svg)](LICENSE)
[![Code style: Black](https://img.shields.io/badge/code%20style-black-000000.svg)](https://github.com/psf/black)

A modern, modular **Windows desktop application** for spectroscopic analysis of stellar, planetary, and exoplanet data. Built with PySide6/Qt for performance and reliability, featuring clean UI, robust provenance tracking, and offline-first caching.

## 🎯 Project Overview

This repository represents the complete rewrite of the Spectra-App into a modern, modular desktop application. The redesign addresses legacy limitations while preserving all existing functionality:

- **Clean Architecture**: Modular service-based design for maintainability
- **Scientific Accuracy**: Rigorous unit handling and provenance tracking
- **Performance Focus**: Optimized for large datasets (1M+ points)
- **Docs-First Development**: Comprehensive documentation for users and developers

### Legacy Reference
- Original application: https://github.com/brettadin/spectra-app
- This repository: Complete PySide6 rewrite with enhanced architecture

## ✨ Key Features

### Accessing Real Spectral Data
- **Remote Data Dialog**: Fetch calibrated spectra directly from NASA MAST archives
  - **Solar System quick-picks**: Mercury, Venus, Earth, Mars, Jupiter, Saturn, Uranus, Neptune, Pluto (JWST, HST, Cassini, New Horizons)
  - **Stars**: Vega (A0V CALSPEC standard), Tau Ceti (solar analog), HD 189733 (active K-dwarf host)
  - **Exoplanets & systems**: HD 189733 b, WASP-39 b, TRAPPIST-1 system (JWST transmission/emission spectra)
  - Access via **File → Fetch Remote Data** (Ctrl+Shift+R)
  - All data from credible sources: MAST, Exo.MAST, NASA Exoplanet Archive
  - Wavelength coverage: UV, visible, near-IR, mid-IR (0.1–30 µm depending on instrument)

> **Note**: Bundled reference data (JWST targets JSON) contains example-only digitized values for demonstration purposes. For scientific analysis, always use the Remote Data dialog to fetch real calibrated observations from MAST.

### Data Ingestion & Management
- **Multi-format Support**: CSV/TXT, FITS 1D, JCAMP-DX with intelligent header detection
- **Remote Data Integration**: NASA/MAST API for JWST spectra, NIST Atomic Spectra Database, NASA Exoplanet Archive
- **Offline-First Cache**: All data persists locally with SHA256 deduplication
- **Provenance Tracking**: Complete audit trail for all data operations

### Analysis & Processing
- **Unit Canon System**: Store raw data in nanometers; display-time conversions (nm/Å/µm/cm⁻¹)
- **Mathematical Operations**: A−B, A/B (epsilon-guarded), baseline removal, Savitzky-Golay smoothing
- **Spectral Analysis**: Gau

File: h2o all runs avg-composite.csv
wavelength_nm,intensity,source_count
22222.2,0.0976335,15
21645,0.208079,15
21097,0.430509,15
20576.1,-0.140616,15
20080.3,0.378382,15
19607.8,0.0945914,15
19157.1,0.903359,15
18726.6,-0.0820601,15
18315,0.0909434,15
17921.1,-0.225801,15
17543.9,8.92474,15
17182.1,-0.0527464,15
16835,0.0910144,15
16501.7,0.448992,15
16181.2,0.446498,15
15873,0.403386,15
15576.3,0.224379,15
15290.5,0.070066,15
15015,0.0577195,15
14749.3,0.639068,15
14492.8,0.301703,15
14245,0.177808,15
14005.6,-0.142666,15
13774.1,0.113117,15
13550.1,-0.0572533,15
13333.3,0.222778,15
13123.4,0.369307,15
12919.9,0.0891541,15
12722.6,0.136258,15
12531.3,0.0388838,15
12345.7,0.429719,15
12165.5,0.158596,15
11990.4,0.674966,15
11820.3,0.0643041,15
11655,-0.0820172,15
11494.3,-0.0697603,15
11337.9,0.0257866,15
11185.7,0.053,15
11037.5,0.00913352,15
10893.2,0.0105141,15
10752.7,0.00444119,15
10615.7,0.010093,15
10482.2,0.00747418,15
10352,0.00828926,15
10224.9,0.00790014,15
10101,0.00614897,15
9980.04,0.00649195,15
9861.93,0.00573182,15
9746.59,0.00530217,15
9633.91,0.00502646,15
9523.81,0.0050561,15
9416.2,0.00482815,15
9310.99,0.00483144,15
9208.1,0.00461244,15
9107.47,0.00430272,15
9009.01,0.00413636,15
8912.66,0.00392027,15
8818.34,0.00379229,15
8726,0.00361173,15
8635.58,0.00360029,15
8547.01,0.00357091,15
8460.24,0.00349534,15
8375.21,0.00339643,15
8291.87,0.0032625,15
8210.18,0.00318092,15
8130.08,0.00314612,15
8051.53,0.0030706,15
7974.48,0.00305294,15
7898.89,0.00303862,15
7824.73,0.0029836,15
7751.94,0.00288747,15
7680.49,0.00283244,15
7610.35,0.00283861,15
7541.48,0.00294343,15
7473.84,0.00261276,15
7407.41,0.00313725,15
7342.14,0.00243986,15
7278.02,0.00302892,15
7215.01,0.0024261,15
7153.08,0.00225241,15
7092.2,0.00284253,15
7032.35,0.00318988,15
6973.5,0.00284149,15
6915.63,0.00263486,15
6858.71,0.00297138,15
6802.72,0.00210452,15
6747.64,0.00313511,15
6693.44,0.00201994,15
6640.11,0.00199964,15
6587.62,0.00255806,15
6535.95,0.00267092,15
6485.08,0.00180766,15
6435.01,0.000846286,15
6385.7,0.00345756,15
6337.14,0.00438093,15
6289.31,0.00352935,15
6242.2,0.00413687,15
6195.79,0.0035404,15
6150.06,0.00399367,15
6105.01,0.00545287,15
6060.61,0.00435819,15
6016.85,0.00409328,15
5973.72,0.00399606,15
5931.2,0.00411917,15
5889.28,0.00479332,15
5847.95,0.00361084,15
5807.2,0.00303932,15
5767.01,0.00242676,15
5727.38,0.00440495,15
5688.28,0.00246784,15
5649.72,0.00296643,15
5611.67,0.00417521,15
5574.14,0.00268304,15
5537.1,0.00311128,15
5500.55,0.00300534,15
5464.48,0.00422853,15
5428.88,0.00312089,15
5393.74,0.00314864,15
5359.06,0.00376266,15
5324.81,0.00305543,15
5291.01,0.00355753,15
5257.62,0.00319568,15
5224.66,0.0030791,15
5192.11,0.00330966,15
5159.96,0.003181,15
5128.21,0.00327178,15
5096.84,0.00334207,15
5065.86,0.00330106,15
5035.25,0.00332166,15
5005.01,0.00340074,15
4975.12,0.00340966,15
4945.6,0.00338637,15
4916.42,0.00340982,15
4887.59,0.0034684,15
4859.09,0.00342475,15
4830.92,0.00345982,15
4803.07,0.00349189,15
4775.55,0.00350083,15
4748.34,0.00356515,15
4721.44,0.00354772,15
4694.84,0.00357697,15
4668.53,0.00356532,15
4642.53,0.00360046,15
4616.81,0.00359462,15
4591.37,0.00365007,15
4566.21,0.00359181,15
4541.33,0.00365298,15
4516.71,0.00365298,15
4492.36,0.00366165,15
4468.28,0.003647,15
4444.44,0.0036675,15
4420.87,0.00371145,15
4397.54,0.00374651,15
4374.45,0.00369088,15
4351.61,0.00359774,15
4329,0.00345498,15
4306.63,0.00325147,15
4284.49,0.00353835,15
4262.57,0.00351748,15
4240.88,0.00340931,15
4219.41,0.00371218,15
4198.15,0.00364495,15
4177.11,0.003878,15
4156.28,0.00388677,15
4135.65,0.0038751,15
4115.23,0.00391021,15
4095,0.00389275,15
4074.98,0.00390738,15
4055.15,0.00393373,15
4035.51,0.00397493,15
4016.06,0.00397485,15
3996.8,0.00398079,15
3977.72,0.00405399,15
3958.83,0.00401315,15
3940.11,0.0040424,15
3921.57,0.00408057,15
3903.2,0.00410719,15
3885,0.00410124,15
3866.98,0.00412196,15
3849.11,0.00411315,15
3831.42,0.00414546,15
3813.88,0.00418675,15
3796.51,0.00419846,15
3779.29,0.00425998,15
3762.23,0.00424568,15
3745.32,0.00424292,15
3728.56,0.0042694,15
3711.95,0.00431341,15
3695.49,0.00433412,15
3679.18,0.00436673,15
3663,0.00436413,15
3646.97,0.004455,15
3631.08,0.00446394,15
3615.33,0.00441744,15
3599.71,0.00448516,15
3584.23,0.00448248,15
3568.88,0.00452699,15
3553.66,0.00457107,15
3538.57,0.00461248,15
3523.61,0.00464816,15
3508.77,0.0045489,15
3494.06,0.00467256,15
3479.47,0.00472016,15
3465,0.00475002,15
3450.66,0.00482695,15
3436.43,0.0048657,15
3422.31,0.00471958,15
3408.32,0.00485867,15
3394.43,0.00502423,15
3380.66,0.00509002,15
3367,0.00515601,15
3353.45,0.00518125,15
3340.01,0.00535328,15
3326.68,0.00542876,15
3313.45,0.00536096,15
3300.33,0.00567203,15
3287.31,0.00573293,15
3274.39,0.00582425,15
3261.58,0.00611499,15
3248.86,0.0061063,15
3236.25,0.00620479,15
3223.73,0.00653948,15
3211.3,0.00659654,15
3198.98,0.00682429,15
3186.74,0.00690111,15
3174.6,0.00710671,15
3162.56,0.00730771,15
3150.6,0.00757136,15
3138.73,0.00781571,15
3126.95,0.00807669,15
3115.26,0.00827152,15
3103.66,0.00840616,15
3092.15,0.00856543,15
3080.71,0.00882389,15
3069.37,0.00881691,15
3058.1,0.00884888,15
3046.92,0.00899147,15
3035.82,0.00909413,15
3024.8,0.00914548,15
3013.86,0.00932066,15
3003,0.00945727,15
2992.22,0.00950585,15
2981.51,0.00963928,15
2970.89,0.00991982,15
2960.33,0.00978707,15
2949.85,0.00973684,15
2939.45,0.00974597,15
2929.12,0.00971366,15
2918.86,0.00961378,15
2908.67,0.00945964,15
2898.55,0.00959613,15
2888.5,0.0094082,15
2878.53,0.00917292,15
2868.62,0.00881358,15
2858.78,0.00872344,15
2849,0.00877578,15
2839.3,0.00826942,15
2829.65,0.00784889,15
2820.08,0.00789999,15
2810.57,0.00751534,15
2801.12,0.00640893,15
2791.74,0.00722549,15
2782.42,0.00649949,15
2773.16,0.00638568,15
2763.96,0.00529312,15
2754.82,0.00364223,15
2745.74,0.00634117,15
2736.73,0.00352084,15
2727.77,0.00494666,15
2718.87,0.00253684,15
2710.03,0.00392534,15
2701.24,0.00522549,15
2692.51,0.00362932,15
2683.84,0.00415497,15
2675.23,0.00201662,15
2666.67,0.00402641,15
2658.16,0.00451309,15
2649.71,0.00471946,15
2641.31,0.00628896,15
2632.96,0.00536724,15
2624.67,0.00393793,15
2616.43,0.00341596,15
2608.24,0.00354046,15
2600.1,0.00483439,15
2592.02,0.00588435,15
2583.98,0.00330301,15
2575.99,0.0059583,15
2568.05,0.00478669,15
2560.16,0.00467857,15
2552.32,0.00573303,15
2544.53,0.00580399,15
2536.78,0.00562173,15
2529.08,0.00583429,15
2521.43,0.00572565,15
2513.83,0.00571444,15
2506.27,0.00577926,15
2500.0,0.00588772,15