Folder: spectra-app-beta/samples/SOLAR SYSTEM/Mercury/UVVDDR/ob3/uvvs_surface/mascs20130213

Note: README.md
# Spectra App - Spectroscopy Toolkit for Exoplanet Characterization

[![Python 3.11+](https://img.shields.io/badge/python-3.11%2B-blue.svg)](https://www.python.org/downloads/)
[![Platform: Windows](https://img.shields.io/badge/platform-Windows-lightgrey.svg)](https://www.microsoft.com/windows)
[![License: MIT](https://img.shields.io/badge/License-MIT-yellow.svg)](LICENSE)
[![Code style: Black](https://img.shields.io/badge/code%20style-black-000000.svg)](https://github.com/psf/black)

A modern, modular **Windows desktop application** for spectroscopic analysis of stellar, planetary, and exoplanet data. Built with PySide6/Qt for performance and reliability, featuring clean UI, robust provenance tracking, and offline-first caching.

## 🎯 Project Overview

This repository represents the complete rewrite of the Spectra-App into a modern, modular desktop application. The redesign addresses legacy limitations while preserving all existing functionality:

- **Clean Architecture**: Modular service-based design for maintainability
- **Scientific Accuracy**: Rigorous unit handling and provenance tracking
- **Performance Focus**: Optimized for large datasets (1M+ points)
- **Docs-First Development**: Comprehensive documentation for users and developers

### Legacy Reference
- Original application: https://github.com/brettadin/spectra-app
- This repository: Complete PySide6 rewrite with enhanced architecture

## ✨ Key Features

### Accessing Real Spectral Data
- **Remote Data Dialog**: Fetch calibrated spectra directly from NASA MAST archives
  - **Solar System quick-picks**: Mercury, Venus, Earth, Mars, Jupiter, Saturn, Uranus, Neptune, Pluto (JWST, HST, Cassini, New Horizons)
  - **Stars**: Vega (A0V CALSPEC standard), Tau Ceti (solar analog), HD 189733 (active K-dwarf host)
  - **Exoplanets & systems**: HD 189733 b, WASP-39 b, TRAPPIST-1 system (JWST transmission/emission spectra)
  - Access via **File → Fetch Remote Data** (Ctrl+Shift+R)
  - All data from credible sources: MAST, Exo.MAST, NASA Exoplanet Archive
  - Wavelength coverage: UV, visible, near-IR, mid-IR (0.1–30 µm depending on instrument)

> **Note**: Bundled reference data (JWST targets JSON) contains example-only digitized values for demonstration purposes. For scientific analysis, always use the Remote Data dialog to fetch real calibrated observations from MAST.

### Data Ingestion & Management
- **Multi-format Support**: CSV/TXT, FITS 1D, JCAMP-DX with intelligent header detection
- **Remote Data Integration**: NASA/MAST API for JWST spectra, NIST Atomic Spectra Database, NASA Exoplanet Archive
- **Offline-First Cache**: All data persists locally with SHA256 deduplication
- **Provenance Tracking**: Complete audit trail for all data operations

### Analysis & Processing
- **Unit Canon System**: Store raw data in nanometers; display-time conversions (nm/Å/µm/cm⁻¹)
- **Mathematical Operations**: A−B, A/B (epsilon-guarded), baseline removal, Savitzky-Golay smoothing
- **Spectral Analysis**: Gau

File: umd_ob2_49_13044_005906_sci.csv
# Source: MESSENGER MASCS UVVS
# Product: UMD_OB2_49_13044_005906_SCI_DAT
# Type: DDR
# Target: MERCURY
# Observation: 2013-02-13T00:59:08 to 2013-02-13T00:59:14
# Units: wavelength_nm=dimensionless
#
wavelength_nm,reflectance
210.0000,5.124222e-03
212.0000,5.963074e-03
214.0000,6.376733e-03
216.0000,6.133250e-03
218.0000,6.667911e-03
220.0000,6.102583e-03
222.0000,6.779391e-03
224.0000,6.438141e-03
226.0000,6.779760e-03
228.0000,6.012782e-03
230.0000,6.125262e-03
232.0000,6.891623e-03
234.0000,6.742977e-03
236.0000,7.296696e-03
238.0000,7.231677e-03
240.0000,7.201134e-03
242.0000,7.963692e-03
244.0000,8.144120e-03
246.0000,8.720903e-03
248.0000,9.272529e-03
250.0000,9.207808e-03
252.0000,1.002651e-02
254.0000,1.059021e-02
256.0000,1.063918e-02
258.0000,1.114130e-02
260.0000,1.147608e-02
262.0000,1.197737e-02
264.0000,1.237213e-02
266.0000,1.233101e-02
268.0000,1.248824e-02
270.0000,1.302658e-02
272.0000,1.327955e-02
274.0000,1.387885e-02
276.0000,1.403557e-02
278.0000,1.476708e-02
280.0000,1.589766e-02
282.0000,1.508470e-02
284.0000,1.571364e-02
286.0000,1.591594e-02
288.0000,1.666435e-02
290.0000,1.690137e-02
292.0000,1.779118e-02
294.0000,1.741930e-02
296.0000,1.826310e-02
298.0000,1.987989e-02
300.0000,1.946246e-02